Folder: Data-of-C600-and-C800-nanocomposites

File: EDX C600.csv
0,0
0.05,0
0.1,0
0.15,0
0.2,0.2
0.25,2.2
0.3,1.8
0.35,0.4
0.4,1.6
0.45,5
0.5,69.2
0.55,40.8
0.6,5.6
0.65,8.4
0.7,5.2
0.75,9.8
0.8,10.4
0.85,1.6
0.9,1.2
0.95,1.2
1,1.6
1.05,1.2
1.1,3.6
1.15,1.6
1.2,10
1.25,32
1.3,10.8
1.35,1.4
1.4,1.2
1.45,2.6
1.5,2.2
1.55,1.6
1.6,2.4
1.65,2.8
1.7,2.6
1.75,2.8
1.8,1.8
1.85,2
1.9,3
1.95,2.6
2,3.4
2.05,2.4
2.1,3.2
2.15,3.2
2.2,3.4
2.25,3.2
2.3,3.4
2.35,3.4
2.4,2.8
2.45,3
2.5,3
2.55,2.6
2.6,3
2.65,2.6
2.7,3.4
2.75,3.8
2.8,3
2.85,1.8
2.9,2.4
2.95,2.2
3,2.8
3.05,3
3.1,3.8
3.15,2.8
3.2,4.6
3.25,2.6
3.3,4.6
3.35,2.8
3.4,3.2
3.45,3.2
3.5,1.8
3.55,2.4
3.6,2.2
3.65,2.8
3.7,3.6
3.75,2.4
3.8,2.8
3.85,2.2
3.9,2
3.95,3.4
4,1.8
4.05,1.6
4.1,2.4
4.15,2.2
4.2,2.6
4.25,1.2
4.3,2.6
4.35,2
4.4,2.6
4.45,2.6
4.5,1.8
4.55,3
4.6,2.6
4.65,2.6
4.7,2.2
4.75,2.6
4.8,2
4.85,2.6
4.9,2.4
5.17,1.8
5.22,2.4
5.27,3
5.32,2.6
5.37,2.6
5.42,2
5.47,2.2
5.52,1.4
5.57,1
5.62,1.2
5.67,2
5.72,2.4
5.77,5.8
5.82,24.4
5.87,62.4
5.92,74.2
5.97,35.2
6.02,9.4
6.07,2.8
6.12,2.2
6.17,1.4
6.37,1.8
6.42,4.2
6.47,9.2
6.52,10.8
6.57,6.4
6.62,2.8
6.67,2.6
6.72,1.6
6.77,1.8
6.82,7.6
6.87,22.2
6.92,38.6
6.97,33.6
7.02,15.2
7.07,4
7.12,1.2
7.17,1
7.22,0.6
7.27,1.6
7.32,1
7.37,0.6
7.42,1.4
7.47,0.6
7.52,2.8
7.57,3
7.62,5
7.67,5.2
7.72,4
7.77,2
7.82,1
7.87,0.4
7.92,1.4
7.97,0.8
8.02,1
8.07,0.6
8.12,1.6
8.17,0.8
8.22,1
8.27,1.2
8.32,0.4
8.37,0.6
8.42,0.6
8.47,0.6
8.52,0.6
8.57,0.8
8.62,1.6
8.67,1
8.72,1.4
8.77,0.6
8.82,1
8.87,0.8
8.92,0.6
8.97,1.4
9.02,1.4
9.07,0.6
9.12,0.4
9.17,0.2
9.22,0.8
9.27,0.6
9.32,0.4
9.37,0.4
9.42,0.8
9.47,0.4
9.52,0.2
9.57,1
9.62,1.6
9.67,0.2
9.72,0.4
9.77,0.6
9.82,0.4
9.87,0.2
9.92,0.4
9.97,1.4
10.02,0.4
10.07,0.6
10.12,0.2
10.17,0.6
10.22,0.4
10.27,0.8
10.32,1
10.37,1.2
10.42,0
10.47,0.6
10.52,0.2
10.57,0.6
10.62,0.8
10.67,0.6
10.72,1
10.77,0.8
10.82,0
10.87,1.4
10.92,0.8
10.97,0.4
11.02,0
11.07,0
11.12,0.4
11.17,0.6
11.22,0.4
11.27,1
11.32,1.2
11.37,0.4
11.42,0
11.47,0.4
11.52,0.4
11.57,0.4
11.62,0.6
11.67,0
11.72,0
11.77,0.8
11.82,0.4
11.87,0.2
11.92,1.2
11.97,0
12.02,0.6
12.07,0.6
12.12,1
12.17,0.8
12.22,0.8
12.27,0.6
12.32,0.6
12.37,0.4
12.42,0.2
12.47,0.4
12.52,0.4
12.57,0.4
12.62,0.2
12.67,0.6
12.72,0.6
12.77,0.4
12.82,0.8
12.87,0.4
12.92,0
12.97,0
13.02,0
13.07,0.4
13.12,0
13.17,0.4
13.22,0.2
13.27,0
13.32,0
13.37,0.8
13.42,0
13.47,0.2
13.52,0.2
13.57,1
13.62,0.2
13.67,0
13.72,1
13.77,0
13.82,0
13.87,0.6
13.92,0.2
13.97,0
14.02,0.2
14.07,0.2
14.12,0.2
14.17,0
14.22,0.4
14.27,0.4
14.32,0.2
14.37,0
14.42,0.2
14.47,0
14.52,0
14.57,0.2
14.62,0
14.67,0
14.72,0
14.77,0.2
14.82,0
14.87,0
14.92,0
14.97,0.2
15,0

File: EDX C800.csv
0,0
0.05,0
0.1,0
0.15,0.14286
0.2,1.14286
0.25,3.57143
0.3,3.71429
0.35,1.42857
0.4,1.71429
0.45,6.85714
0.5,72.71429
0.55,59.71429
0.6,8.85714
0.65,8.85714
0.7,4.57143
0.75,13.71429
0.8,15.28571
0.85,4.28571
0.9,2
0.95,0.71429
1,0.85714
1.05,1.14286
1.1,1.57143
1.15,3.42857
1.2,13.28571
1.25,32.57143
1.3,15.57143
1.35,3.85714
1.4,2.85714
1.45,2.71429
1.5,3.57143
1.55,2.85714
1.6,3
1.65,2.14286
1.7,3.57143
1.75,2.28571
1.8,2.28571
1.85,2.28571
1.9,4.28571
1.95,4.28571
2,3.28571
2.05,2.71429
2.1,3
2.15,3.14286
2.2,3.28571
2.25,3
2.3,2.42857
2.35,4
2.4,3.14286
2.45,1.57143
2.5,3.42857
2.55,3.71429
2.6,3.71429
2.65,3.28571
2.7,3
2.75,2.42857
2.8,2.14286
2.85,2.14286
2.9,2.85714
2.95,3.71429
3,2.71429
3.05,2.71429
3.1,2.57143
3.15,3.85714
3.2,3.14286
3.25,2.14286
3.3,3
3.35,3.28571
3.4,2.28571
3.45,3.28571
3.5,2.71429
3.55,2.57143
3.6,2.57143
3.65,3.57143
3.7,2.42857
3.75,2.57143
3.8,2.57143
3.85,2
3.9,2.28571
4.11,2.57143
4.16,2.57143
4.21,2.28571
4.26,3
4.31,2.85714
4.36,2.71429
4.41,3.14286
4.46,2
4.51,2.14286
4.56,2.14286
4.61,2
4.66,2.14286
4.71,1.42857
4.76,1.28571
4.81,1.28571
4.86,1.71429
4.91,1.85714
4.96,1.71429
5.01,1.57143
5.33,1.42857
5.38,1.14286
5.43,1
5.48,1.42857
5.53,1.42857
5.58,1.42857
5.63,2
5.68,2.42857
5.73,2.42857
5.78,10.14286
5.83,37.85714
5.88,72.71429
5.93,66.85714
5.98,25.71429
6.03,8
6.08,3.28571
6.13,2.42857
6.18,2
6.23,2.14286
6.28,2.28571
6.33,1.85714
6.38,2.71429
6.43,7.57143
6.48,11
6.53,9.57143
6.58,4.14286
6.63,2.42857
6.68,1.71429
6.73,1.57143
6.78,3.28571
6.83,10.85714
6.88,26.14286
6.93,39.85714
6.98,31.85714
7.03,15
7.08,3.42857
7.13,0.85714
7.18,1.71429
7.23,1.42857
7.28,1.28571
7.52,2.14286
7.57,2.85714
7.62,5.42857
7.67,8
7.72,5.57143
7.77,1.85714
7.82,1.28571
7.87,0.71429
7.92,1.14286
7.97,0.71429
8.02,0.28571
8.07,0.85714
8.12,0.85714
8.17,0.71429
8.22,0.85714
8.27,1.14286
8.32,1.28571
8.37,0.85714
8.42,0.28571
8.47,1
8.52,0.57143
8.57,0.28571
8.62,1
8.67,0.71429
8.72,0.71429
8.77,0.57143
8.82,0.14286
8.87,0.42857
8.92,1
8.97,0.71429
9.02,0.57143
9.07,0.57143
9.12,0.42857
9.17,0.57143
9.22,0.14286
9.27,0.71429
9.32,0.71429
9.37,0.42857
9.42,1
9.47,0.71429
9.52,0.71429
9.57,0.85714
9.62,1
9.67,0.85714
9.72,0.85714
9.77,0.57143
9.82,0.57143
9.87,0.42857
9.92,0.71429
9.97,0.14286
10.02,0.42857
10.07,0.57143
10.12,0.42857
10.17,0.28571
10.22,0.57143
10.27,0.71429
10.32,0.71429
10.37,0.42857
10.42,0.42857
10.47,0.28571
10.52,0.57143
10.57,0.57143
10.62,0.57143
10.67,0.57143
10.72,0.28571
10.77,0.14286
10.82,0.57143
10.87,0.57143
10.92,0.42857
10.97,0.28571
11.02,0.85714
11.07,0.57143
11.12,0.57143
11.17,0
11.22,0
11.27,0.42857
11.32,1
11.37,0.28571
11.42,0.28571
11.47,0.42857
11.52,0.42857
11.57,0.57143
11.62,0.42857
11.67,0.14286
11.72,0.28571
11.77,0.42857
11.82,0.57143
11.87,0.42857
11.92,0.28571
11.97,0.71429
12.02,0.57143
12.07,0.42857
12.12,0.42857
12.17,0.14286
12.22,0.42857
12.27,0.71429
12.32,0.42857
12.37,0.28571
12.42,0.71429
12.47,0
12.52,0.28571
12.57,0.28571
12.62,0.42857
12.67,0.42857
12.72,0.57143
12.77,0.42857
12.82,0.42857
12.87,0.14286
12.92,0.14286
12.97,0.14286
13.02,0.42857
13.07,0.57143
13.12,0.14286
13.17,0
13.22,0.42857
13.27,0.28571
13.32,0.57143
13.37,0.14286
13.42,0.14286
13.47,0.42857
13.52,0.57143
13.57,0.42857
13.62,0.14286
13.67,0
13.72,0
13.77,0.57143
13.82,0.42857
13.87,0
13.92,0.42857
13.97,0.71429
14.02,0
14.07,0.14286
14.12,0.28571
14.17,0.28571
14.22,0.14286
14.27,0.28571
14.32,0.57143
14.37,0.57143
14.42,0.14286
14.47,0.14286
14.52,0.14286
14.57,0
14.62,0
14.67,0
14.72,0
14.77,0
14.82,0
14.87,0.14286
14.92,0.14286
14.97,0
15,0